File: XPS/CuOx/Cu_LMM_2/C0017_Cu_LMM.TXT
C:\Users\Orlando\Documents\Postdoctoral_Work\Data\GGB_XPS_Nov2018\20181119_CuOxide_corevamas.vms
Cu Auger/4
	Characteristic Energy eV	1486.71	Acquisition Time s	3	Step Size eV	0.05	No Steps	600
KE_Cu Auger/4	BE_Cu Auger/4	Background_Cu Auger/4
901.71	585	2129.33
901.76	584.95	2129
901.81	584.9	2128.67
901.86	584.85	2124.67
901.91	584.8	2120.67
901.96	584.75	2129.83
902.01	584.7	2139
902.06	584.65	2138.33
902.11	584.6	2137.67
902.16	584.55	2139.83
902.21	584.5	2142
902.26	584.45	2153.33
902.31	584.4	2164.67
902.36	584.35	2148.67
902.41	584.3	2132.67
902.46	584.25	2127.67
902.51	584.2	2122.67
902.56	584.15	2130.33
902.61	584.1	2138
902.66	584.05	2153.17
902.71	584	2168.33
902.76	583.95	2131.67
902.81	583.9	2095
902.86	583.85	2101.83
902.91	583.8	2108.67
902.96	583.75	2120.33
903.01	583.7	2132
903.06	583.65	2136.5
903.11	583.6	2141
903.16	583.55	2127.5
903.21	583.5	2114
903.26	583.45	2135.17
903.31	583.4	2156.33
903.36	583.35	2156
903.41	583.3	2155.67
903.46	583.25	2141.83
903.51	583.2	2128
903.56	583.15	2143.5
903.61	583.1	2159
903.66	583.05	2148.33
903.71	583	2137.67
903.76	582.95	2131.67
903.81	582.9	2125.67
903.86	582.85	2124.17
903.91	582.8	2122.67
903.96	582.75	2146.33
904.01	582.7	2170
904.06	582.65	2180.5
904.11	582.6	2191
904.16	582.55	2171.67
904.21	582.5	2152.33
904.26	582.45	2142.33
904.31	582.4	2132.33
904.36	582.35	2139.67
904.41	582.3	2147
904.46	582.25	2136.5
904.51	582.2	2126
904.56	582.15	2138.17
904.61	582.1	2150.33
904.66	582.05	2144.33
904.71	582	2138.33
904.76	581.95	2152.5
904.81	581.9	2166.67
904.86	581.85	2176.33
904.91	581.8	2186
904.96	581.75	2176.83
905.01	581.7	2167.67
905.06	581.65	2159
905.11	581.6	2150.33
905.16	581.55	2149.17
905.21	581.5	2148
905.26	581.45	2160.5
905.31	581.4	2173
905.36	581.35	2164.17
905.41	581.3	2155.33
905.46	581.25	2181
905.51	581.2	2206.67
905.56	581.15	2202.33
905.61	581.1	2198
905.66	581.05	2205.33
905.71	581	2212.67
905.76	580.95	2201.17
905.81	580.9	2189.67
905.86	580.85	2200.33
905.91	580.8	2211
905.96	580.75	2214.67
906.01	580.7	2218.33
906.06	580.65	2201.33
906.11	580.6	2184.33
906.16	580.55	2197.17
906.21	580.5	2210
906.26	580.45	2223.83
906.31	580.4	2237.67
906.36	580.35	2221.17
906.41	580.3	2204.67
906.46	580.25	2223.67
906.51	580.2	2242.67
906.56	580.15	2248.67
906.61	580.1	2254.67
906.66	580.05	2270.5
906.71	580	2286.33
906.76	579.95	2232.5
906.81	579.9	2178.67
906.86	579.85	2217.5
906.91	579.8	2256.33
906.96	579.75	2249.5
907.01	579.7	2242.67
907.06	579.65	2237.67
907.11	579.6	2232.67
907.16	579.55	2243.83
907.21	579.5	2255
907.26	579.45	2233.17
907.31	579.4	2211.33
907.36	579.35	2240.17
907.41	579.3	2269
907.46	579.25	2253.5
907.51	579.2	2238
907.56	579.15	2241.67
907.61	579.1	2245.33
907.66	579.05	2259.17
907.71	579	2273
907.76	578.95	2254
907.81	578.9	2235
907.86	578.85	2267.67
907.91	578.8	2300.33
907.96	578.75	2309.33
908.01	578.7	2318.33
908.06	578.65	2302.83
908.11	578.6	2287.33
908.16	578.55	2276.67
908.21	578.5	2266
908.26	578.45	2280
908.31	578.4	2294
908.36	578.35	2274.17
908.41	578.3	2254.33
908.46	578.25	2294
908.51	578.2	2333.67
908.56	578.15	2321.33
908.61	578.1	2309
908.66	578.05	2296.33
908.71	578	2283.67
908.76	577.95	2290.17
908.81	577.9	2296.67
908.86	577.85	2314.67
908.91	577.8	2332.67
908.96	577.75	2309.83
909.01	577.7	2287
909.06	577.65	2287.67
909.11	577.6	2288.33
909.16	577.55	2306.67
909.21	577.5	2325
909.26	577.45	2316.17
909.31	577.4	2307.33
909.36	577.35	2328.83
909.41	577.3	2350.33
909.46	577.25	2328.5
909.51	577.2	2306.67
909.56	577.15	2313.83
909.61	577.1	2321
909.66	577.05	2338.17
909.71	577	2355.33
909.76	576.95	2364.5
909.81	576.9	2373.67
909.86	576.85	2382.67
909.91	576.8	2391.67
909.96	576.75	2378.5
910.01	576.7	2365.33
910.06	576.65	2380.5
910.11	576.6	2395.67
910.16	576.55	2390.5
910.21	576.5	2385.33
910.26	576.45	2406.83
910.31	576.4	2428.33
910.36	576.35	2452
910.41	576.3	2475.67
910.46	576.25	2462.17
910.51	576.2	2448.67
910.56	576.15	2445.83
910.61	576.1	2443
910.66	576.05	2463
910.71	576	2483
910.76	575.95	2481.67
910.81	575.9	2480.33
910.86	575.85	2485.5
910.91	575.8	2490.67
910.96	575.75	2501
911.01	575.7	2511.33
911.06	575.65	2528.17
911.11	575.6	2545
911.16	575.55	2558
911.21	575.5	2571
911.26	575.45	2594
911.31	575.4	2617
911.36	575.35	2591.83
911.41	575.3	2566.67
911.46	575.25	2544.17
911.51	575.2	2521.67
911.56	575.15	2550.5
911.61	575.1	2579.33
911.66	575.05	2559
911.71	575	2538.67
911.76	574.95	2559.83
911.81	574.9	2581
911.86	574.85	2602
911.91	574.8	2623
911.96	574.75	2634.17
912.01	574.7	2645.33
912.06	574.65	2648.33
912.11	574.6	2651.33
912.16	574.55	2676.83
912.21	574.5	2702.33
912.26	574.45	2677.17
912.31	574.4	2652
912.36	574.35	2667.5
912.41	574.3	2683
912.46	574.25	2693.5
912.51	574.2	2704
912.56	574.15	2699
912.61	574.1	2694
912.66	574.05	2677
912.71	574	2660
912.76	573.95	2705.83
912.81	573.9	2751.67
912.86	573.85	2727.33
912.91	573.8	2703
912.96	573.75	2718.83
913.01	573.7	2734.67
913.06	573.65	2729.17
913.11	573.6	2723.67
913.16	573.55	2728.33
913.21	573.5	2733
913.26	573.45	2724.67
913.31	573.4	2716.33
913.36	573.35	2715
913.41	573.3	2713.67
913.46	573.25	2715.83
913.51	573.2	2718
913.56	573.15	2733
913.61	573.1	2748
913.66	573.05	2725
913.71	573	2702
913.76	572.95	2712
913.81	572.9	2722
913.86	572.85	2746.17
913.91	572.8	2770.33
913.96	572.75	2746.17
914.01	572.7	2722
914.06	572.65	2729.17
914.11	572.6	2736.33
914.16	572.55	2741.33
914.21	572.5	2746.33
914.26	572.45	2777.33
914.31	572.4	2808.33
914.36	572.35	2816.5
914.41	572.3	2824.67
914.46	572.25	2824.5
914.51	572.2	2824.33
914.56	572.15	2840.5
914.61	572.1	2856.67
914.66	572.05	2853
914.71	572	2849.33
914.76	571.95	2845.17
914.81	571.9	2841
914.86	571.85	2860.67
914.91	571.8	2880.33
914.96	571.75	2906.33
915.01	571.7	2932.33
915.06	571.65	2981.5
915.11	571.6	3030.67
915.16	571.55	3045.5
915.21	571.5	3060.33
915.26	571.45	3116
915.31	571.4	3171.67
915.36	571.35	3207.67
915.41	571.3	3243.67
915.46	571.25	3272.67
915.51	571.2	3301.67
915.56	571.15	3374.33
915.61	571.1	3447
915.66	571.05	3464.33
915.71	571	3481.67
915.76	570.95	3524.67
915.81	570.9	3567.67
915.86	570.85	3654
915.91	570.8	3740.33
915.96	570.75	3799.5
916.01	570.7	3858.67
916.06	570.65	3916.33
916.11	570.6	3974
916.16	570.55	4051.33
916.21	570.5	4128.67
916.26	570.45	4185.33
916.31	570.4	4242
916.36	570.35	4308.83
916.41	570.3	4375.67
916.46	570.25	4411
916.51	570.2	4446.33
916.56	570.15	4497.17
916.61	570.1	4548
916.66	570.05	4517.67
916.71	570	4487.33
916.76	569.95	4465.33
916.81	569.9	4443.33
916.86	569.85	4428.17
916.91	569.8	4413
916.96	569.75	4358.67
917.01	569.7	4304.33
917.06	569.65	4232.5
917.11	569.6	4160.67
917.16	569.55	4093.33
917.21	569.5	4026
917.26	569.45	3948
917.31	569.4	3870
917.36	569.35	3801.17
917.41	569.3	3732.33
917.46	569.25	3658.83
917.51	569.2	3585.33
917.56	569.15	3516.67
917.61	569.1	3448
917.66	569.05	3406.5
917.71	569	3365
917.76	568.95	3298.17
917.81	568.9	3231.33
917.86	568.85	3214.33
917.91	568.8	3197.33
917.96	568.75	3140.17
918.01	568.7	3083
918.06	568.65	3047.17
918.11	568.6	3011.33
918.16	568.55	2953.67
918.21	568.5	2896
918.26	568.45	2873.17
918.31	568.4	2850.33
918.36	568.35	2797.67
918.41	568.3	2745
918.46	568.25	2729
918.51	568.2	2713
918.56	568.15	2710.5
918.61	568.1	2708
918.66	568.05	2664
918.71	568	2620
918.76	567.95	2597.83
918.81	567.9	2575.67
918.86	567.85	2566.33
918.91	567.8	2557
918.96	567.75	2501
919.01	567.7	2445
919.06	567.65	2452.17
919.11	567.6	2459.33
919.16	567.55	2449.83
919.21	567.5	2440.33
919.26	567.45	2418.17
919.31	567.4	2396
919.36	567.35	2379.83
919.41	567.3	2363.67
919.46	567.25	2347.67
919.51	567.2	2331.67
919.56	567.15	2297.5
919.61	567.1	2263.33
919.66	567.05	2246.67
919.71	567	2230
919.76	566.95	2195.5
919.81	566.9	2161
919.86	566.85	2150.67
919.91	566.8	2140.33
919.96	566.75	2102.33
920.01	566.7	2064.33
920.06	566.65	2070.33
920.11	566.6	2076.33
920.16	566.55	2055.5
920.21	566.5	2034.67
920.26	566.45	2017.67
920.31	566.4	2000.67
920.36	566.35	1980
920.41	566.3	1959.33
920.46	566.25	1950.17
920.51	566.2	1941
920.56	566.15	1938.5
920.61	566.1	1936
920.66	566.05	1913.83
920.71	566	1891.67
920.76	565.95	1886.83
920.81	565.9	1882
920.86	565.85	1872.83
920.91	565.8	1863.67
920.96	565.75	1862.83
921.01	565.7	1862
921.06	565.65	1855.83
921.11	565.6	1849.67
921.16	565.55	1827.5
921.21	565.5	1805.33
921.26	565.45	1790.67
921.31	565.4	1776
921.36	565.35	1777.5
921.41	565.3	1779
921.46	565.25	1769.67
921.51	565.2	1760.33
921.56	565.15	1755.67
921.61	565.1	1751
921.66	565.05	1743.17
921.71	565	1735.33
921.76	564.95	1734.17
921.81	564.9	1733
921.86	564.85	1711
921.91	564.8	1689
921.96	564.75	1701
922.01	564.7	1713
922.06	564.65	1709.5
922.11	564.6	1706
922.16	564.55	1690.67
922.21	564.5	1675.33
922.26	564.45	1669.67
922.31	564.4	1664
922.36	564.35	1635.17
922.41	564.3	1606.33
922.46	564.25	1611.83
922.51	564.2	1617.33
922.56	564.15	1616.67
922.61	564.1	1616
922.66	564.05	1596.83
922.71	564	1577.67
922.76	563.95	1548.33
922.81	563.9	1519
922.86	563.85	1538
922.91	563.8	1557
922.96	563.75	1535.5
923.01	563.7	1514
923.06	563.65	1515.67
923.11	563.6	1517.33
923.16	563.55	1499.33
923.21	563.5	1481.33
923.26	563.45	1475.5
923.31	563.4	1469.67
923.36	563.35	1455.83
923.41	563.3	1442
923.46	563.25	1425.5
923.51	563.2	1409
923.56	563.15	1410.67
923.61	563.1	1412.33
923.66	563.05	1426.33
923.71	563	1440.33
923.76	562.95	1421.33
923.81	562.9	1402.33
923.86	562.85	1396.17
923.91	562.8	1390
923.96	562.75	1408.17
924.01	562.7	1426.33
924.06	562.65	1420.17
924.11	562.6	1414
924.16	562.55	1397.17
924.21	562.5	1380.33
924.26	562.45	1365.33
924.31	562.4	1350.33
924.36	562.35	1356.17
924.41	562.3	1362
924.46	562.25	1357.5
924.51	562.2	1353
924.56	562.15	1355.5
924.61	562.1	1358
924.66	562.05	1358.33
924.71	562	1358.67
924.76	561.95	1335.5
924.81	561.9	1312.33
924.86	561.85	1317.17
924.91	561.8	1322
924.96	561.75	1325.5
925.01	561.7	1329
925.06	561.65	1336.67
925.11	561.6	1344.33
925.16	561.55	1339.17
925.21	561.5	1334
925.26	561.45	1352.67
925.31	561.4	1371.33
925.36	561.35	1358.33
925.41	561.3	1345.33
925.46	561.25	1345.17
925.51	561.2	1345
925.56	561.15	1336.83
925.61	561.1	1328.67
925.66	561.05	1340
925.71	561	1351.33
925.76	560.95	1341.83
925.81	560.9	1332.33
925.86	560.85	1325.5
925.91	560.8	1318.67
925.96	560.75	1318.5
926.01	560.7	1318.33
926.06	560.65	1310.83
926.11	560.6	1303.33
926.16	560.55	1314
926.21	560.5	1324.67
926.26	560.45	1322
926.31	560.4	1319.33
926.36	560.35	1305.5
926.41	560.3	1291.67
926.46	560.25	1313.5
926.51	560.2	1335.33
926.56	560.15	1324
926.61	560.1	1312.67
926.66	560.05	1295
926.71	560	1277.33
926.76	559.95	1262.83
926.81	559.9	1248.33
926.86	559.85	1267.67
926.91	559.8	1287
926.96	559.75	1274.83
927.01	559.7	1262.67
927.06	559.65	1252.33
927.11	559.6	1242
927.16	559.55	1253
927.21	559.5	1264
927.26	559.45	1261.67
927.31	559.4	1259.33
927.36	559.35	1256
927.41	559.3	1252.67
927.46	559.25	1244.83
927.51	559.2	1237
927.56	559.15	1247.67
927.61	559.1	1258.33
927.66	559.05	1258
927.71	559	1257.67
927.76	558.95	1256.33
927.81	558.9	1255
927.86	558.85	1234.17
927.91	558.8	1213.33
927.96	558.75	1207
928.01	558.7	1200.67
928.06	558.65	1217.17
928.11	558.6	1233.67
928.16	558.55	1235
928.21	558.5	1236.33
928.26	558.45	1224.17
928.31	558.4	1212
928.36	558.35	1212.17
928.41	558.3	1212.33
928.46	558.25	1203.83
928.51	558.2	1195.33
928.56	558.15	1206.83
928.61	558.1	1218.33
928.66	558.05	1204.83
928.71	558	1191.33
928.76	557.95	1193.17
928.81	557.9	1195
928.86	557.85	1202.5
928.91	557.8	1210
928.96	557.75	1202
929.01	557.7	1194
929.06	557.65	1186.33
929.11	557.6	1178.67
929.16	557.55	1194.17
929.21	557.5	1209.67
929.26	557.45	1201.5
929.31	557.4	1193.33
929.36	557.35	1199
929.41	557.3	1204.67
929.46	557.25	1192.83
929.51	557.2	1181
929.56	557.15	1187
929.61	557.1	1193
929.66	557.05	1193.83
929.71	557	1194.67
929.76	556.95	1212.33
929.81	556.9	1230
929.86	556.85	1218.5
929.91	556.8	1207
929.96	556.75	1204.17
930.01	556.7	1201.33
930.06	556.65	1198
930.11	556.6	1194.67
930.16	556.55	1196.33
930.21	556.5	1198
930.26	556.45	1212.17
930.31	556.4	1226.33
930.36	556.35	1214.17
930.41	556.3	1202
930.46	556.25	1213
930.51	556.2	1224
930.56	556.15	1210.33
930.61	556.1	1196.67
930.66	556.05	1209.33
930.71	556	1222
930.76	555.95	1228.17
930.81	555.9	1234.33
930.86	555.85	1222.5
930.91	555.8	1210.67
930.96	555.75	1213.33
931.01	555.7	1216
931.06	555.65	1236
931.11	555.6	1256
931.16	555.55	1238.17
931.21	555.5	1220.33
931.26	555.45	1224.83
931.31	555.4	1229.33
931.36	555.35	1249.17
931.41	555.3	1269
931.46	555.25	1255.33
931.51	555.2	1241.67
931.56	555.15	1243.33
931.61	555.1	1245
931.66	555.05	1247